word,colour,congruent,corrAns,trials.thisRepN,trials.thisTrialN,trials.thisN,trials.thisIndex,text_2.started,text_3.started,text_2.stopped,text_3.stopped,instrText.started,key_resp.started,key_resp.keys,key_resp.rt,target.started,response.started,response.keys,response.corr,response.rt,text.started,text.stopped,endNotes.started,stressScore.started,stressScore.response,stressScore.rt,text_4.started,text_4.stopped,session,participant,date,expName,psychopyVersion,frameRate,
,,,,,,,,17.230028799996944,47.22675129999698,47.24331340000208,47.726977900005295,47.726977900005295,47.726977900005295,space,2.1518460999941453,,,,,,,,,,,,,,001,Heidi_5,2023-04-14_15h00.33.278,strooptest,2022.2.5,60.11895135656809,
GREEN,blue,0,right,0,0,0,13,,,,,,,,,50.392947799991816,50.392947799991816,right,1,0.6680153999914182,,,,,,,,,001,Heidi_5,2023-04-14_15h00.33.278,strooptest,2022.2.5,60.11895135656809,
BLUE,green,0,down,0,1,1,4,,,,,,,,,51.59270809999725,51.59270809999725,up,0,0.49506869999459013,,,,,,,,,001,Heidi_5,2023-04-14_15h00.33.278,strooptest,2022.2.5,60.11895135656809,
YELLOW,red,0,left,0,2,2,10,,,,,,,,,52.60976029999438,52.60976029999438,left,1,0.556422499998007,,,,,,,,,001,Heidi_5,2023-04-14_15h00.33.278,strooptest,2022.2.5,60.11895135656809,
RED,blue,0,right,0,3,3,3,,,,,,,,,53.69289969999227,53.69289969999227,right,1,0.5674197000043932,,,,,,,,,001,Heidi_5,2023-04-14_15h00.33.278,strooptest,2022.2.5,60.11895135656809,
RED,yellow,0,up,0,4,4,2,,,,,,,,,54.79232019999472,54.79232019999472,left,0,0.7763998000009451,,,,,,,,,001,Heidi_5,2023-04-14_15h00.33.278,strooptest,2022.2.5,60.11895135656809,
BLUE,yellow,0,up,0,5,5,7,,,,,,,,,56.09213809999346,56.09213809999346,up,1,0.50240230000054,,,,,,,,,001,Heidi_5,2023-04-14_15h00.33.278,strooptest,2022.2.5,60.11895135656809,
GREEN,yellow,0,up,0,6,6,12,,,,,,,,,57.12522220000392,57.12522220000392,up,1,0.47922389999439474,,,,,,,,,001,Heidi_5,2023-04-14_15h00.33.278,strooptest,2022.2.5,60.11895135656809,
RED,green,0,down,0,7,7,1,,,,,,,,,58.12505980000424,58.12505980000424,down,1,0.7918081999960123,,,,,,,,,001,Heidi_5,2023-04-14_15h00.33.278,strooptest,2022.2.5,60.11895135656809,
GREEN,red,0,left,0,8,8,15,,,,,,,,,59.44153759999608,59.44153759999608,left,1,0.5072832000005292,,,,,,,,,001,Heidi_5,2023-04-14_15h00.33.278,strooptest,2022.2.5,60.11895135656809,
GREEN,green,1,down,0,9,9,14,,,,,,,,,60.47501559999364,60.47501559999364,down,1,0.8762430000060704,,,,,,,,,001,Heidi_5,2023-04-14_15h00.33.278,strooptest,2022.2.5,60.11895135656809,
YELLOW,green,0,down,0,10,10,9,,,,,,,,,61.87445239999215,61.87445239999215,down,1,0.5670898999960627,,,,,,,,,001,Heidi_5,2023-04-14_15h00.33.278,strooptest,2022.2.5,60.11895135656809,
YELLOW,blue,0,right,0,11,11,11,,,,,,,,,62.974405100001604,62.974405100001604,left,0,0.7989672999974573,,,,,,,,,001,Heidi_5,2023-04-14_15h00.33.278,strooptest,2022.2.5,60.11895135656809,
BLUE,red,0,left,0,12,12,5,,,,,,,,,64.29073589999462,64.29073589999462,left,1,0.797747899996466,,,,,,,,,001,Heidi_5,2023-04-14_15h00.33.278,strooptest,2022.2.5,60.11895135656809,
YELLOW,yellow,1,up,0,13,13,8,,,,,,,,,65.6072634000011,65.6072634000011,up,1,0.7179478999896673,,,,,,,,,001,Heidi_5,2023-04-14_15h00.33.278,strooptest,2022.2.5,60.11895135656809,
BLUE,blue,1,right,0,14,14,6,,,,,,,,,66.85700000000361,66.85700000000361,right,1,0.5644496000022627,,,,,,,,,001,Heidi_5,2023-04-14_15h00.33.278,strooptest,2022.2.5,60.11895135656809,
RED,red,1,left,0,15,15,0,,,,,,,,,67.94024199999694,67.94024199999694,left,1,0.5764729999937117,,,,,,,,,001,Heidi_5,2023-04-14_15h00.33.278,strooptest,2022.2.5,60.11895135656809,
GREEN,red,0,left,1,0,16,15,,,,,,,,,69.03993159999663,69.03993159999663,left,1,0.5110803999996278,,,,,,,,,001,Heidi_5,2023-04-14_15h00.33.278,strooptest,2022.2.5,60.11895135656809,
YELLOW,yellow,1,up,1,1,17,8,,,,,,,,,70.07331279999926,70.07331279999926,up,1,0.5734243000042625,,,,,,,,,001,Heidi_5,2023-04-14_15h00.33.278,strooptest,2022.2.5,60.11895135656809,
YELLOW,blue,0,right,1,2,18,11,,,,,,,,,71.17309979999845,71.17309979999845,right,1,0.6848962000076426,,,,,,,,,001,Heidi_5,2023-04-14_15h00.33.278,strooptest,2022.2.5,60.11895135656809,
BLUE,green,0,down,1,3,19,4,,,,,,,,,72.38947680000274,72.38947680000274,down,1,0.6200412000034703,,,,,,,,,001,Heidi_5,2023-04-14_15h00.33.278,strooptest,2022.2.5,60.11895135656809,
RED,blue,0,right,1,4,20,3,,,,,,,,,73.5393602999975,73.5393602999975,right,1,0.8103153999982169,,,,,,,,,001,Heidi_5,2023-04-14_15h00.33.278,strooptest,2022.2.5,60.11895135656809,
GREEN,blue,0,right,1,5,21,13,,,,,,,,,74.87251410000317,74.87251410000317,right,1,0.4817911999998614,,,,,,,,,001,Heidi_5,2023-04-14_15h00.33.278,strooptest,2022.2.5,60.11895135656809,
YELLOW,green,0,down,1,6,22,9,,,,,,,,,75.87232249999943,75.87232249999943,down,1,0.7130047000100603,,,,,,,,,001,Heidi_5,2023-04-14_15h00.33.278,strooptest,2022.2.5,60.11895135656809,
BLUE,blue,1,right,1,7,23,6,,,,,,,,,77.10542469999928,77.10542469999928,left,0,0.4637254999979632,,,,,,,,,001,Heidi_5,2023-04-14_15h00.33.278,strooptest,2022.2.5,60.11895135656809,
RED,red,1,left,1,8,24,0,,,,,,,,,78.08849189999455,78.08849189999455,left,1,0.5329292999958852,,,,,,,,,001,Heidi_5,2023-04-14_15h00.33.278,strooptest,2022.2.5,60.11895135656809,
GREEN,green,1,down,1,9,25,14,,,,,,,,,79.13829210000404,79.13829210000404,down,1,0.6074628999922425,,,,,,,,,001,Heidi_5,2023-04-14_15h00.33.278,strooptest,2022.2.5,60.11895135656809,
YELLOW,red,0,left,1,10,26,10,,,,,,,,,80.27165379999497,80.27165379999497,left,1,0.5981220000103349,,,,,,,,,001,Heidi_5,2023-04-14_15h00.33.278,strooptest,2022.2.5,60.11895135656809,
RED,green,0,down,1,11,27,1,,,,,,,,,81.38793529999384,81.38793529999384,down,1,0.6770753000018885,,,,,,,,,001,Heidi_5,2023-04-14_15h00.33.278,strooptest,2022.2.5,60.11895135656809,
GREEN,yellow,0,up,1,12,28,12,,,,,,,,,82.58785690000514,82.58785690000514,up,1,1.099184000006062,,,,,,,,,001,Heidi_5,2023-04-14_15h00.33.278,strooptest,2022.2.5,60.11895135656809,
RED,yellow,0,up,1,13,29,2,,,,,,,,,84.2042833000014,84.2042833000014,up,1,0.5727189999888651,,,,,,,,,001,Heidi_5,2023-04-14_15h00.33.278,strooptest,2022.2.5,60.11895135656809,
BLUE,red,0,left,1,14,30,5,,,,,,,,,85.30408240000543,85.30408240000543,right,0,1.0754615999903763,,,,,,,,,001,Heidi_5,2023-04-14_15h00.33.278,strooptest,2022.2.5,60.11895135656809,
BLUE,yellow,0,up,1,15,31,7,,,,,,,,,86.9042832999985,86.9042832999985,up,1,1.1171274999942398,,,,,,,,,001,Heidi_5,2023-04-14_15h00.33.278,strooptest,2022.2.5,60.11895135656809,
YELLOW,green,0,down,2,0,32,9,,,,,,,,,88.53688460000558,88.53688460000558,down,1,1.3095809999940684,,,,,,,,,001,Heidi_5,2023-04-14_15h00.33.278,strooptest,2022.2.5,60.11895135656809,
RED,red,1,left,2,1,33,0,,,,,,,,,90.37004199999501,90.37004199999501,left,1,0.6566506999952253,,,,,,,,,001,Heidi_5,2023-04-14_15h00.33.278,strooptest,2022.2.5,60.11895135656809,
RED,blue,0,right,2,2,34,3,,,,,,,,,91.5531001000054,91.5531001000054,right,1,0.6424416999943787,,,,,,,,,001,Heidi_5,2023-04-14_15h00.33.278,strooptest,2022.2.5,60.11895135656809,
YELLOW,red,0,left,2,3,35,10,,,,,,,,,92.7201372999989,92.7201372999989,left,1,1.060405099997297,,,,,,,,,001,Heidi_5,2023-04-14_15h00.33.278,strooptest,2022.2.5,60.11895135656809,
BLUE,green,0,down,2,4,36,4,,,,,,,,,94.30269729999418,94.30269729999418,down,1,0.6445561000000453,,,,,,,,,001,Heidi_5,2023-04-14_15h00.33.278,strooptest,2022.2.5,60.11895135656809,
YELLOW,blue,0,right,2,5,37,11,,,,,,,,,95.46981300000334,95.46981300000334,right,1,1.018756499994197,,,,,,,,,001,Heidi_5,2023-04-14_15h00.33.278,strooptest,2022.2.5,60.11895135656809,
BLUE,yellow,0,up,2,6,38,7,,,,,,,,,97.01936809999461,97.01936809999461,up,1,0.9823923999938415,,,,,,,,,001,Heidi_5,2023-04-14_15h00.33.278,strooptest,2022.2.5,60.11895135656809,
BLUE,blue,1,right,2,7,39,6,,,,,,,,,98.51869559999614,98.51869559999614,left,0,0.7408399999985704,,,,,,,,,001,Heidi_5,2023-04-14_15h00.33.278,strooptest,2022.2.5,60.11895135656809,
GREEN,yellow,0,up,2,8,40,12,,,,,,,,,99.78507349999563,99.78507349999563,up,1,0.623784399984288,,,,,,,,,001,Heidi_5,2023-04-14_15h00.33.278,strooptest,2022.2.5,60.11895135656809,
GREEN,blue,0,right,2,9,41,13,,,,,,,,,100.93527849999373,100.93527849999373,left,0,0.4703000000008615,,,,,,,,,001,Heidi_5,2023-04-14_15h00.33.278,strooptest,2022.2.5,60.11895135656809,
GREEN,red,0,left,2,10,42,15,,,,,,,,,101.93469880000339,101.93469880000339,left,1,1.078053400007775,,,,,,,,,001,Heidi_5,2023-04-14_15h00.33.278,strooptest,2022.2.5,60.11895135656809,
GREEN,green,1,down,2,11,43,14,,,,,,,,,103.53456080000615,103.53456080000615,down,1,0.5587357999902451,,,,,,,,,001,Heidi_5,2023-04-14_15h00.33.278,strooptest,2022.2.5,60.11895135656809,
BLUE,red,0,left,2,12,44,5,,,,,,,,,104.61774129999685,104.61774129999685,left,1,1.2670879999932367,,,,,,,,,001,Heidi_5,2023-04-14_15h00.33.278,strooptest,2022.2.5,60.11895135656809,
RED,green,0,down,2,13,45,1,,,,,,,,,106.4007794999925,106.4007794999925,down,1,0.8008626000082586,,,,,,,,,001,Heidi_5,2023-04-14_15h00.33.278,strooptest,2022.2.5,60.11895135656809,
RED,yellow,0,up,2,14,46,2,,,,,,,,,107.73380390000239,107.73380390000239,up,1,0.7052589999948395,,,,,,,,,001,Heidi_5,2023-04-14_15h00.33.278,strooptest,2022.2.5,60.11895135656809,
YELLOW,yellow,1,up,2,15,47,8,,,,,,,,,108.96701360000588,108.96701360000588,up,1,0.7658727999951225,,,,,,,,,001,Heidi_5,2023-04-14_15h00.33.278,strooptest,2022.2.5,60.11895135656809,
,,,,,,,,,,,,,,,,,,,,,109.75029899999208,109.87631779999356,110.39694340000278,110.39694340000278,3.0,2.7959913999948185,113.04973990000144,116.04916660000163,,,,,,,
