word,colour,congruent,corrAns,trials.thisRepN,trials.thisTrialN,trials.thisN,trials.thisIndex,text_2.started,text_3.started,text_2.stopped,text_3.stopped,instrText.started,key_resp.started,key_resp.keys,key_resp.rt,target.started,response.started,response.keys,response.corr,response.rt,text.started,text.stopped,endNotes.started,stressScore.started,stressScore.response,stressScore.rt,text_4.started,text_4.stopped,session,participant,date,expName,psychopyVersion,frameRate,
,,,,,,,,20.317280999996,50.313745599996764,50.330321699992055,50.81393940000271,50.81393940000271,50.81393940000271,space,19.877393600007053,,,,,,,,,,,,,,001,Heidi,2023-04-14_14h47.30.338,strooptest,2022.2.5,59.91346099884915,
RED,green,0,down,0,0,0,1,,,,,,,,,71.21045189999859,71.21045189999859,down,1,1.316983299999265,,,,,,,,,001,Heidi,2023-04-14_14h47.30.338,strooptest,2022.2.5,59.91346099884915,
GREEN,blue,0,right,0,1,1,13,,,,,,,,,73.06014940000023,73.06014940000023,left,0,1.4170968999969773,,,,,,,,,001,Heidi,2023-04-14_14h47.30.338,strooptest,2022.2.5,59.91346099884915,
BLUE,blue,1,right,0,2,2,6,,,,,,,,,75.00982239999576,75.00982239999576,left,0,1.340215200005332,,,,,,,,,001,Heidi,2023-04-14_14h47.30.338,strooptest,2022.2.5,59.91346099884915,
YELLOW,blue,0,right,0,3,3,11,,,,,,,,,76.87619729999278,76.87619729999278,right,1,2.123449899998377,,,,,,,,,001,Heidi,2023-04-14_14h47.30.338,strooptest,2022.2.5,59.91346099884915,
RED,blue,0,right,0,4,4,3,,,,,,,,,79.5260755999916,79.5260755999916,right,1,1.3334580999944592,,,,,,,,,001,Heidi,2023-04-14_14h47.30.338,strooptest,2022.2.5,59.91346099884915,
BLUE,red,0,left,0,5,5,5,,,,,,,,,81.39217179999105,81.39217179999105,left,1,1.2484017000097083,,,,,,,,,001,Heidi,2023-04-14_14h47.30.338,strooptest,2022.2.5,59.91346099884915,
YELLOW,green,0,down,0,6,6,9,,,,,,,,,83.15854930000205,83.15854930000205,down,1,1.3052540000062436,,,,,,,,,001,Heidi,2023-04-14_14h47.30.338,strooptest,2022.2.5,59.91346099884915,
RED,yellow,0,up,0,7,7,2,,,,,,,,,84.9915583999973,84.9915583999973,up,1,1.191670600004727,,,,,,,,,001,Heidi,2023-04-14_14h47.30.338,strooptest,2022.2.5,59.91346099884915,
GREEN,green,1,down,0,8,8,14,,,,,,,,,86.7080011999933,86.7080011999933,down,1,2.061124200001359,,,,,,,,,001,Heidi,2023-04-14_14h47.30.338,strooptest,2022.2.5,59.91346099884915,
GREEN,yellow,0,up,0,9,9,12,,,,,,,,,89.29080329999852,89.29080329999852,up,1,1.567025600001216,,,,,,,,,001,Heidi,2023-04-14_14h47.30.338,strooptest,2022.2.5,59.91346099884915,
YELLOW,red,0,left,0,10,10,10,,,,,,,,,91.37390959999175,91.37390959999175,left,1,1.21221169999626,,,,,,,,,001,Heidi,2023-04-14_14h47.30.338,strooptest,2022.2.5,59.91346099884915,
RED,red,1,left,0,11,11,0,,,,,,,,,93.10696099999768,93.10696099999768,left,1,0.7900192000088282,,,,,,,,,001,Heidi,2023-04-14_14h47.30.338,strooptest,2022.2.5,59.91346099884915,
BLUE,green,0,down,0,12,12,4,,,,,,,,,94.42342549999012,94.42342549999012,down,1,2.3180416999966837,,,,,,,,,001,Heidi,2023-04-14_14h47.30.338,strooptest,2022.2.5,59.91346099884915,
BLUE,yellow,0,up,0,13,13,7,,,,,,,,,97.27325889999338,97.27325889999338,right,0,1.5514144000044325,,,,,,,,,001,Heidi,2023-04-14_14h47.30.338,strooptest,2022.2.5,59.91346099884915,
YELLOW,yellow,1,up,0,14,14,8,,,,,,,,,99.35603280000214,99.35603280000214,right,0,1.0316269000031753,,,,,,,,,001,Heidi,2023-04-14_14h47.30.338,strooptest,2022.2.5,59.91346099884915,
GREEN,red,0,left,0,15,15,15,,,,,,,,,100.90636429999722,100.90636429999722,left,1,1.0749988000025041,,,,,,,,,001,Heidi,2023-04-14_14h47.30.338,strooptest,2022.2.5,59.91346099884915,
GREEN,red,0,left,1,0,16,15,,,,,,,,,102.50587599999562,102.50587599999562,left,1,1.0375598999962676,,,,,,,,,001,Heidi,2023-04-14_14h47.30.338,strooptest,2022.2.5,59.91346099884915,
YELLOW,red,0,left,1,1,17,10,,,,,,,,,104.07193079999706,104.07193079999706,left,1,0.7075994000042556,,,,,,,,,001,Heidi,2023-04-14_14h47.30.338,strooptest,2022.2.5,59.91346099884915,
GREEN,blue,0,right,1,2,18,13,,,,,,,,,105.30509979999624,105.30509979999624,right,1,0.7392699000047287,,,,,,,,,001,Heidi,2023-04-14_14h47.30.338,strooptest,2022.2.5,59.91346099884915,
GREEN,yellow,0,up,1,3,19,12,,,,,,,,,106.57193669999833,106.57193669999833,up,1,1.0651214999961667,,,,,,,,,001,Heidi,2023-04-14_14h47.30.338,strooptest,2022.2.5,59.91346099884915,
RED,red,1,left,1,4,20,0,,,,,,,,,108.13794519999647,108.13794519999647,left,1,1.1066255000041565,,,,,,,,,001,Heidi,2023-04-14_14h47.30.338,strooptest,2022.2.5,59.91346099884915,
RED,blue,0,right,1,5,21,3,,,,,,,,,109.77106820000336,109.77106820000336,right,1,0.9802034000022104,,,,,,,,,001,Heidi,2023-04-14_14h47.30.338,strooptest,2022.2.5,59.91346099884915,
YELLOW,blue,0,right,1,6,22,11,,,,,,,,,111.2711438999977,111.2711438999977,right,1,0.541644400000223,,,,,,,,,001,Heidi,2023-04-14_14h47.30.338,strooptest,2022.2.5,59.91346099884915,
RED,yellow,0,up,1,7,23,2,,,,,,,,,112.33760630000324,112.33760630000324,up,1,1.424055600000429,,,,,,,,,001,Heidi,2023-04-14_14h47.30.338,strooptest,2022.2.5,59.91346099884915,
BLUE,green,0,down,1,8,24,4,,,,,,,,,114.28698679999798,114.28698679999798,down,1,0.6507024000020465,,,,,,,,,001,Heidi,2023-04-14_14h47.30.338,strooptest,2022.2.5,59.91346099884915,
GREEN,green,1,down,1,9,25,14,,,,,,,,,115.47019829999772,115.47019829999772,down,1,0.7324082000122871,,,,,,,,,001,Heidi,2023-04-14_14h47.30.338,strooptest,2022.2.5,59.91346099884915,
BLUE,blue,1,right,1,10,26,6,,,,,,,,,116.7199835999927,116.7199835999927,left,0,0.9248004999972181,,,,,,,,,001,Heidi,2023-04-14_14h47.30.338,strooptest,2022.2.5,59.91346099884915,
YELLOW,yellow,1,up,1,11,27,8,,,,,,,,,118.17001750000054,118.17001750000054,up,1,0.9638348000007682,,,,,,,,,001,Heidi,2023-04-14_14h47.30.338,strooptest,2022.2.5,59.91346099884915,
YELLOW,green,0,down,1,12,28,9,,,,,,,,,119.65277770000102,119.65277770000102,down,1,1.7519501999922795,,,,,,,,,001,Heidi,2023-04-14_14h47.30.338,strooptest,2022.2.5,59.91346099884915,
BLUE,red,0,left,1,13,29,5,,,,,,,,,121.93574010000157,121.93574010000157,left,1,1.6214082999940729,,,,,,,,,001,Heidi,2023-04-14_14h47.30.338,strooptest,2022.2.5,59.91346099884915,
BLUE,yellow,0,up,1,14,30,7,,,,,,,,,124.08602819999214,124.08602819999214,up,1,1.7959020999987843,,,,,,,,,001,Heidi,2023-04-14_14h47.30.338,strooptest,2022.2.5,59.91346099884915,
RED,green,0,down,1,15,31,1,,,,,,,,,126.40168480000284,126.40168480000284,down,1,1.390722199997981,,,,,,,,,001,Heidi,2023-04-14_14h47.30.338,strooptest,2022.2.5,59.91346099884915,
GREEN,green,1,down,2,0,32,14,,,,,,,,,128.31866330000048,128.31866330000048,down,1,0.589914600001066,,,,,,,,,001,Heidi,2023-04-14_14h47.30.338,strooptest,2022.2.5,59.91346099884915,
BLUE,red,0,left,2,1,33,5,,,,,,,,,129.4346721000038,129.4346721000038,left,1,1.2496814000041923,,,,,,,,,001,Heidi,2023-04-14_14h47.30.338,strooptest,2022.2.5,59.91346099884915,
GREEN,blue,0,right,2,2,34,13,,,,,,,,,131.20136019999336,131.20136019999336,right,1,0.6935644999903161,,,,,,,,,001,Heidi,2023-04-14_14h47.30.338,strooptest,2022.2.5,59.91346099884915,
RED,green,0,down,2,3,35,1,,,,,,,,,132.41795000000275,132.41795000000275,down,1,1.2767658000084339,,,,,,,,,001,Heidi,2023-04-14_14h47.30.338,strooptest,2022.2.5,59.91346099884915,
YELLOW,red,0,left,2,4,36,10,,,,,,,,,134.21717249999347,134.21717249999347,left,1,1.3016300000017509,,,,,,,,,001,Heidi,2023-04-14_14h47.30.338,strooptest,2022.2.5,59.91346099884915,
YELLOW,blue,0,right,2,5,37,11,,,,,,,,,136.05036819999805,136.05036819999805,right,1,1.4813006000040332,,,,,,,,,001,Heidi,2023-04-14_14h47.30.338,strooptest,2022.2.5,59.91346099884915,
RED,blue,0,right,2,6,38,3,,,,,,,,,138.04991590000282,138.04991590000282,right,1,0.43155160000605974,,,,,,,,,001,Heidi,2023-04-14_14h47.30.338,strooptest,2022.2.5,59.91346099884915,
RED,red,1,left,2,7,39,0,,,,,,,,,138.99991749999754,138.99991749999754,left,1,0.6725783000001684,,,,,,,,,001,Heidi,2023-04-14_14h47.30.338,strooptest,2022.2.5,59.91346099884915,
BLUE,green,0,down,2,8,40,4,,,,,,,,,140.19958190000034,140.19958190000034,down,1,0.9117951999942306,,,,,,,,,001,Heidi,2023-04-14_14h47.30.338,strooptest,2022.2.5,59.91346099884915,
YELLOW,green,0,down,2,9,41,9,,,,,,,,,141.61612429999514,141.61612429999514,down,1,0.538948999994318,,,,,,,,,001,Heidi,2023-04-14_14h47.30.338,strooptest,2022.2.5,59.91346099884915,
RED,yellow,0,up,2,10,42,2,,,,,,,,,142.6823865000042,142.6823865000042,up,1,0.5901176999905147,,,,,,,,,001,Heidi,2023-04-14_14h47.30.338,strooptest,2022.2.5,59.91346099884915,
GREEN,yellow,0,up,2,11,43,12,,,,,,,,,143.79897589999018,143.79897589999018,up,1,0.5412184000015259,,,,,,,,,001,Heidi,2023-04-14_14h47.30.338,strooptest,2022.2.5,59.91346099884915,
BLUE,yellow,0,up,2,12,44,7,,,,,,,,,144.86550780000107,144.86550780000107,up,1,0.4792738000105601,,,,,,,,,001,Heidi,2023-04-14_14h47.30.338,strooptest,2022.2.5,59.91346099884915,
BLUE,blue,1,right,2,13,45,6,,,,,,,,,145.86574159999145,145.86574159999145,left,0,0.6660985000053188,,,,,,,,,001,Heidi,2023-04-14_14h47.30.338,strooptest,2022.2.5,59.91346099884915,
YELLOW,yellow,1,up,2,14,46,8,,,,,,,,,147.0485137999931,147.0485137999931,up,1,0.8225843999971403,,,,,,,,,001,Heidi,2023-04-14_14h47.30.338,strooptest,2022.2.5,59.91346099884915,
GREEN,red,0,left,2,15,47,15,,,,,,,,,148.39895350000006,148.39895350000006,left,1,2.0463741999992635,,,,,,,,,001,Heidi,2023-04-14_14h47.30.338,strooptest,2022.2.5,59.91346099884915,
,,,,,,,,,,,,,,,,,,,,,150.46479620000173,150.60598069999833,151.1060290000023,151.1060290000023,3.0,3.696089499993832,154.68095890000404,157.68014679999033,,,,,,,
