word,colour,congruent,corrAns,trials.thisRepN,trials.thisTrialN,trials.thisN,trials.thisIndex,text_2.started,text_3.started,text_2.stopped,text_3.stopped,instrText.started,key_resp.started,key_resp.keys,key_resp.rt,target.started,response.started,response.keys,response.corr,response.rt,text.started,text.stopped,endNotes.started,stressScore.started,stressScore.response,stressScore.rt,text_4.started,text_4.stopped,session,participant,date,expName,psychopyVersion,frameRate,
,,,,,,,,19.77084109999123,49.75800940000045,49.77388899998914,50.25738709999132,50.25738709999132,50.25738709999132,space,2.8590488000045298,,,,,,,,,,,,,,001,Heidi_3,2023-04-14_14h54.57.722,strooptest,2022.2.5,60.022208214949984,
BLUE,yellow,0,up,0,0,0,7,,,,,,,,,53.64004249998834,53.64004249998834,up,1,0.683099999994738,,,,,,,,,001,Heidi_3,2023-04-14_14h54.57.722,strooptest,2022.2.5,60.022208214949984,
YELLOW,red,0,left,0,1,1,10,,,,,,,,,54.83993729999929,54.83993729999929,left,1,0.4897636999958195,,,,,,,,,001,Heidi_3,2023-04-14_14h54.57.722,strooptest,2022.2.5,60.022208214949984,
GREEN,green,1,down,0,2,2,14,,,,,,,,,55.85633429999871,55.85633429999871,down,1,1.1214195999928052,,,,,,,,,001,Heidi_3,2023-04-14_14h54.57.722,strooptest,2022.2.5,60.022208214949984,
YELLOW,blue,0,right,0,3,3,11,,,,,,,,,57.506191099993885,57.506191099993885,right,1,0.8656977000064217,,,,,,,,,001,Heidi_3,2023-04-14_14h54.57.722,strooptest,2022.2.5,60.022208214949984,
BLUE,blue,1,right,0,4,4,6,,,,,,,,,58.88921109998773,58.88921109998773,right,1,0.5549106000107713,,,,,,,,,001,Heidi_3,2023-04-14_14h54.57.722,strooptest,2022.2.5,60.022208214949984,
GREEN,red,0,left,0,5,5,15,,,,,,,,,59.972665499997674,59.972665499997674,left,1,0.8445142999989912,,,,,,,,,001,Heidi_3,2023-04-14_14h54.57.722,strooptest,2022.2.5,60.022208214949984,
RED,green,0,down,0,6,6,1,,,,,,,,,61.339022000000114,61.339022000000114,down,1,1.0252347999921767,,,,,,,,,001,Heidi_3,2023-04-14_14h54.57.722,strooptest,2022.2.5,60.022208214949984,
BLUE,red,0,left,0,7,7,5,,,,,,,,,62.87188779999269,62.87188779999269,up,0,0.7457070000091335,,,,,,,,,001,Heidi_3,2023-04-14_14h54.57.722,strooptest,2022.2.5,60.022208214949984,
YELLOW,yellow,1,up,0,8,8,8,,,,,,,,,64.13849040000059,64.13849040000059,up,1,0.601247600003262,,,,,,,,,001,Heidi_3,2023-04-14_14h54.57.722,strooptest,2022.2.5,60.022208214949984,
RED,red,1,left,0,9,9,0,,,,,,,,,65.27160949999234,65.27160949999234,left,1,0.9805989000014961,,,,,,,,,001,Heidi_3,2023-04-14_14h54.57.722,strooptest,2022.2.5,60.022208214949984,
GREEN,yellow,0,up,0,10,10,12,,,,,,,,,66.7713015999907,66.7713015999907,up,1,0.909243999994942,,,,,,,,,001,Heidi_3,2023-04-14_14h54.57.722,strooptest,2022.2.5,60.022208214949984,
YELLOW,green,0,down,0,11,11,9,,,,,,,,,68.20443679999153,68.20443679999153,down,1,0.7510141999955522,,,,,,,,,001,Heidi_3,2023-04-14_14h54.57.722,strooptest,2022.2.5,60.022208214949984,
RED,blue,0,right,0,12,12,3,,,,,,,,,69.48757499999192,69.48757499999192,right,1,0.6838635000021895,,,,,,,,,001,Heidi_3,2023-04-14_14h54.57.722,strooptest,2022.2.5,60.022208214949984,
RED,yellow,0,up,0,13,13,2,,,,,,,,,70.68737559999863,70.68737559999863,right,0,0.5864425000036135,,,,,,,,,001,Heidi_3,2023-04-14_14h54.57.722,strooptest,2022.2.5,60.022208214949984,
GREEN,blue,0,right,0,14,14,13,,,,,,,,,71.80385249998653,71.80385249998653,left,0,1.1484319000010146,,,,,,,,,001,Heidi_3,2023-04-14_14h54.57.722,strooptest,2022.2.5,60.022208214949984,
BLUE,green,0,down,0,15,15,4,,,,,,,,,73.4702011999907,73.4702011999907,down,1,0.8921830000035698,,,,,,,,,001,Heidi_3,2023-04-14_14h54.57.722,strooptest,2022.2.5,60.022208214949984,
YELLOW,blue,0,right,1,0,16,11,,,,,,,,,74.8867850999959,74.8867850999959,right,1,1.5641421000036644,,,,,,,,,001,Heidi_3,2023-04-14_14h54.57.722,strooptest,2022.2.5,60.022208214949984,
BLUE,yellow,0,up,1,1,17,7,,,,,,,,,76.96966449999309,76.96966449999309,up,1,1.3993524000106845,,,,,,,,,001,Heidi_3,2023-04-14_14h54.57.722,strooptest,2022.2.5,60.022208214949984,
BLUE,blue,1,right,1,2,18,6,,,,,,,,,78.88610839999455,78.88610839999455,left,0,0.9548118999955477,,,,,,,,,001,Heidi_3,2023-04-14_14h54.57.722,strooptest,2022.2.5,60.022208214949984,
GREEN,blue,0,right,1,3,19,13,,,,,,,,,80.35247419998632,80.35247419998632,left,0,0.6701187000144273,,,,,,,,,001,Heidi_3,2023-04-14_14h54.57.722,strooptest,2022.2.5,60.022208214949984,
BLUE,green,0,down,1,4,20,4,,,,,,,,,81.552789999987,81.552789999987,down,1,2.265776600004756,,,,,,,,,001,Heidi_3,2023-04-14_14h54.57.722,strooptest,2022.2.5,60.022208214949984,
RED,blue,0,right,1,5,21,3,,,,,,,,,84.33536859999003,84.33536859999003,right,1,0.6694162999920081,,,,,,,,,001,Heidi_3,2023-04-14_14h54.57.722,strooptest,2022.2.5,60.022208214949984,
GREEN,red,0,left,1,6,22,15,,,,,,,,,85.53518229999463,85.53518229999463,left,1,0.6936427000036929,,,,,,,,,001,Heidi_3,2023-04-14_14h54.57.722,strooptest,2022.2.5,60.022208214949984,
RED,yellow,0,up,1,7,23,2,,,,,,,,,86.75152159998834,86.75152159998834,up,1,0.6215340000053402,,,,,,,,,001,Heidi_3,2023-04-14_14h54.57.722,strooptest,2022.2.5,60.022208214949984,
GREEN,yellow,0,up,1,8,24,12,,,,,,,,,87.88468079999438,87.88468079999438,up,1,0.6581612000009045,,,,,,,,,001,Heidi_3,2023-04-14_14h54.57.722,strooptest,2022.2.5,60.022208214949984,
RED,green,0,down,1,9,25,1,,,,,,,,,89.06778209999902,89.06778209999902,down,1,0.6121493999962695,,,,,,,,,001,Heidi_3,2023-04-14_14h54.57.722,strooptest,2022.2.5,60.022208214949984,
RED,red,1,left,1,10,26,0,,,,,,,,,90.20094149999204,90.20094149999204,right,0,1.6878884000034304,,,,,,,,,001,Heidi_3,2023-04-14_14h54.57.722,strooptest,2022.2.5,60.022208214949984,
YELLOW,yellow,1,up,1,11,27,8,,,,,,,,,92.41726909999852,92.41726909999852,up,1,0.5276768000039738,,,,,,,,,001,Heidi_3,2023-04-14_14h54.57.722,strooptest,2022.2.5,60.022208214949984,
YELLOW,red,0,left,1,12,28,10,,,,,,,,,93.46738789998926,93.46738789998926,left,1,0.6010432000039145,,,,,,,,,001,Heidi_3,2023-04-14_14h54.57.722,strooptest,2022.2.5,60.022208214949984,
GREEN,green,1,down,1,13,29,14,,,,,,,,,94.60023119999096,94.60023119999096,right,0,1.4460485000017798,,,,,,,,,001,Heidi_3,2023-04-14_14h54.57.722,strooptest,2022.2.5,60.022208214949984,
YELLOW,green,0,down,1,14,30,9,,,,,,,,,96.5666659999988,96.5666659999988,down,1,0.675774100003764,,,,,,,,,001,Heidi_3,2023-04-14_14h54.57.722,strooptest,2022.2.5,60.022208214949984,
BLUE,red,0,left,1,15,31,5,,,,,,,,,97.76634019998892,97.76634019998892,left,1,0.5890097999945283,,,,,,,,,001,Heidi_3,2023-04-14_14h54.57.722,strooptest,2022.2.5,60.022208214949984,
YELLOW,red,0,left,2,0,32,10,,,,,,,,,98.88298899999063,98.88298899999063,left,1,0.5776010999979917,,,,,,,,,001,Heidi_3,2023-04-14_14h54.57.722,strooptest,2022.2.5,60.022208214949984,
RED,yellow,0,up,2,1,33,2,,,,,,,,,99.98313939999207,99.98313939999207,up,1,1.7130010999972,,,,,,,,,001,Heidi_3,2023-04-14_14h54.57.722,strooptest,2022.2.5,60.022208214949984,
RED,blue,0,right,2,2,34,3,,,,,,,,,102.21594509998977,102.21594509998977,right,1,1.3758483999990858,,,,,,,,,001,Heidi_3,2023-04-14_14h54.57.722,strooptest,2022.2.5,60.022208214949984,
RED,green,0,down,2,3,35,1,,,,,,,,,104.11569149998832,104.11569149998832,down,1,2.125454900000477,,,,,,,,,001,Heidi_3,2023-04-14_14h54.57.722,strooptest,2022.2.5,60.022208214949984,
RED,red,1,left,2,4,36,0,,,,,,,,,106.76518529999885,106.76518529999885,left,1,0.5050733999960357,,,,,,,,,001,Heidi_3,2023-04-14_14h54.57.722,strooptest,2022.2.5,60.022208214949984,
YELLOW,blue,0,right,2,5,37,11,,,,,,,,,107.79839609999908,107.79839609999908,right,1,1.7388034999894444,,,,,,,,,001,Heidi_3,2023-04-14_14h54.57.722,strooptest,2022.2.5,60.022208214949984,
GREEN,yellow,0,up,2,6,38,12,,,,,,,,,110.04806459999236,110.04806459999236,up,1,0.64822770000319,,,,,,,,,001,Heidi_3,2023-04-14_14h54.57.722,strooptest,2022.2.5,60.022208214949984,
BLUE,red,0,left,2,7,39,5,,,,,,,,,111.21429639999405,111.21429639999405,left,1,0.7634789000003366,,,,,,,,,001,Heidi_3,2023-04-14_14h54.57.722,strooptest,2022.2.5,60.022208214949984,
YELLOW,yellow,1,up,2,8,40,8,,,,,,,,,112.49750099999073,112.49750099999073,up,1,0.47955080000974704,,,,,,,,,001,Heidi_3,2023-04-14_14h54.57.722,strooptest,2022.2.5,60.022208214949984,
GREEN,red,0,left,2,9,41,15,,,,,,,,,113.49729559999832,113.49729559999832,left,1,0.645324700002675,,,,,,,,,001,Heidi_3,2023-04-14_14h54.57.722,strooptest,2022.2.5,60.022208214949984,
YELLOW,green,0,down,2,10,42,9,,,,,,,,,114.66376909999235,114.66376909999235,down,1,0.7313570999976946,,,,,,,,,001,Heidi_3,2023-04-14_14h54.57.722,strooptest,2022.2.5,60.022208214949984,
BLUE,yellow,0,up,2,11,43,7,,,,,,,,,115.91351469999063,115.91351469999063,right,0,0.8970447999890894,,,,,,,,,001,Heidi_3,2023-04-14_14h54.57.722,strooptest,2022.2.5,60.022208214949984,
BLUE,green,0,down,2,12,44,4,,,,,,,,,117.33006359999126,117.33006359999126,down,1,0.8354496999963885,,,,,,,,,001,Heidi_3,2023-04-14_14h54.57.722,strooptest,2022.2.5,60.022208214949984,
GREEN,green,1,down,2,13,45,14,,,,,,,,,118.69643889999134,118.69643889999134,down,1,0.4619976000103634,,,,,,,,,001,Heidi_3,2023-04-14_14h54.57.722,strooptest,2022.2.5,60.022208214949984,
BLUE,blue,1,right,2,14,46,6,,,,,,,,,119.67968879999535,119.67968879999535,right,1,0.8112426000006963,,,,,,,,,001,Heidi_3,2023-04-14_14h54.57.722,strooptest,2022.2.5,60.022208214949984,
GREEN,blue,0,right,2,15,47,13,,,,,,,,,121.01271299998916,121.01271299998916,right,1,0.46956219999992754,,,,,,,,,001,Heidi_3,2023-04-14_14h54.57.722,strooptest,2022.2.5,60.022208214949984,
,,,,,,,,,,,,,,,,,,,,,121.5126775999961,121.64158749999478,122.15624979999848,122.15624979999848,3.0,2.7598607999971136,124.77875939999649,127.77827439999965,,,,,,,
