word,colour,congruent,corrAns,trials.thisRepN,trials.thisTrialN,trials.thisN,trials.thisIndex,text_2.started,text_3.started,text_2.stopped,text_3.stopped,instrText.started,key_resp.started,key_resp.keys,key_resp.rt,target.started,response.started,response.keys,response.corr,response.rt,text.started,endNotes.started,stressScore.started,stressScore.response,stressScore.rt,text_4.started,text_4.stopped,session,participant,date,expName,psychopyVersion,frameRate,
,,,,,,,,28.113396499989904,58.1056469999894,58.122440899998765,58.60582159999467,58.60582159999467,58.60582159999467,space,18.271364800006268,,,,,,,,,,,,,001,avni_1,2023-04-14_15h43.50.575,strooptest,2022.2.5,59.848487571741614,
RED,blue,0,right,0,0,0,3,,,,,,,,,77.40332179999677,77.40332179999677,right,1,0.5778485999908298,,,,,,,,001,avni_1,2023-04-14_15h43.50.575,strooptest,2022.2.5,59.848487571741614,
BLUE,green,0,down,0,1,1,4,,,,,,,,,78.50240669999039,78.50240669999039,left,0,0.5220612999983132,,,,,,,,001,avni_1,2023-04-14_15h43.50.575,strooptest,2022.2.5,59.848487571741614,
GREEN,green,1,down,0,2,2,14,,,,,,,,,79.55380309998873,79.55380309998873,down,1,0.7596739000000525,,,,,,,,001,avni_1,2023-04-14_15h43.50.575,strooptest,2022.2.5,59.848487571741614,
YELLOW,yellow,1,up,0,3,3,8,,,,,,,,,80.83533969998825,80.83533969998825,down,0,0.8688239000039175,,,,,,,,001,avni_1,2023-04-14_15h43.50.575,strooptest,2022.2.5,59.848487571741614,
RED,yellow,0,up,0,4,4,2,,,,,,,,,82.23560519999592,82.23560519999592,up,1,0.5221929999970598,,,,,,,,001,avni_1,2023-04-14_15h43.50.575,strooptest,2022.2.5,59.848487571741614,
BLUE,yellow,0,up,0,5,5,7,,,,,,,,,83.28512390000105,83.28512390000105,left,0,0.548228299987386,,,,,,,,001,avni_1,2023-04-14_15h43.50.575,strooptest,2022.2.5,59.848487571741614,
GREEN,yellow,0,up,0,6,6,12,,,,,,,,,84.35153599998739,84.35153599998739,down,0,0.856120500000543,,,,,,,,001,avni_1,2023-04-14_15h43.50.575,strooptest,2022.2.5,59.848487571741614,
RED,red,1,left,0,7,7,0,,,,,,,,,85.7347035999992,85.7347035999992,right,0,2.5235236000007717,,,,,,,,001,avni_1,2023-04-14_15h43.50.575,strooptest,2022.2.5,59.848487571741614,
YELLOW,green,0,down,0,8,8,9,,,,,,,,,88.7844127999997,88.7844127999997,down,1,1.7605009999970207,,,,,,,,001,avni_1,2023-04-14_15h43.50.575,strooptest,2022.2.5,59.848487571741614,
BLUE,blue,1,right,0,9,9,6,,,,,,,,,91.06707689999894,91.06707689999894,up,0,1.638939600001322,,,,,,,,001,avni_1,2023-04-14_15h43.50.575,strooptest,2022.2.5,59.848487571741614,
BLUE,red,0,left,0,10,10,5,,,,,,,,,93.23384539999824,93.23384539999824,up,0,0.7922890999907395,,,,,,,,001,avni_1,2023-04-14_15h43.50.575,strooptest,2022.2.5,59.848487571741614,
YELLOW,red,0,left,0,11,11,10,,,,,,,,,94.55007729999488,94.55007729999488,down,0,1.526609099993948,,,,,,,,001,avni_1,2023-04-14_15h43.50.575,strooptest,2022.2.5,59.848487571741614,
GREEN,red,0,left,0,12,12,15,,,,,,,,,96.59997119999025,96.59997119999025,up,0,1.577511499999673,,,,,,,,001,avni_1,2023-04-14_15h43.50.575,strooptest,2022.2.5,59.848487571741614,
RED,green,0,down,0,13,13,1,,,,,,,,,98.69920750000165,98.69920750000165,right,0,0.8443599999882281,,,,,,,,001,avni_1,2023-04-14_15h43.50.575,strooptest,2022.2.5,59.848487571741614,
YELLOW,blue,0,right,0,14,14,11,,,,,,,,,100.0657574999932,100.0657574999932,left,0,1.6234090000070864,,,,,,,,001,avni_1,2023-04-14_15h43.50.575,strooptest,2022.2.5,59.848487571741614,
GREEN,blue,0,right,0,15,15,13,,,,,,,,,102.215389399993,102.215389399993,up,0,2.917248500001733,,,,,,,,001,avni_1,2023-04-14_15h43.50.575,strooptest,2022.2.5,59.848487571741614,
YELLOW,blue,0,right,1,0,16,11,,,,,,,,,105.66523020000022,105.66523020000022,down,0,0.9834161000035238,,,,,,,,001,avni_1,2023-04-14_15h43.50.575,strooptest,2022.2.5,59.848487571741614,
RED,red,1,left,1,1,17,0,,,,,,,,,107.16460109999753,107.16460109999753,right,0,0.8501702999928966,,,,,,,,001,avni_1,2023-04-14_15h43.50.575,strooptest,2022.2.5,59.848487571741614,
BLUE,yellow,0,up,1,2,18,7,,,,,,,,,108.53160699999717,108.53160699999717,down,0,1.3212610999908065,,,,,,,,001,avni_1,2023-04-14_15h43.50.575,strooptest,2022.2.5,59.848487571741614,
RED,blue,0,right,1,3,19,3,,,,,,,,,110.3811277999921,110.3811277999921,down,0,0.7461717999976827,,,,,,,,001,avni_1,2023-04-14_15h43.50.575,strooptest,2022.2.5,59.848487571741614,
YELLOW,yellow,1,up,1,4,20,8,,,,,,,,,111.63062299999001,111.63062299999001,down,0,1.3403112999949371,,,,,,,,001,avni_1,2023-04-14_15h43.50.575,strooptest,2022.2.5,59.848487571741614,
GREEN,blue,0,right,1,5,21,13,,,,,,,,,113.49709289999737,113.49709289999737,up,0,2.901424900002894,,,,,,,,001,avni_1,2023-04-14_15h43.50.575,strooptest,2022.2.5,59.848487571741614,
YELLOW,red,0,left,1,6,22,10,,,,,,,,,116.9299589000002,116.9299589000002,down,0,0.7750890999886906,,,,,,,,001,avni_1,2023-04-14_15h43.50.575,strooptest,2022.2.5,59.848487571741614,
GREEN,red,0,left,1,7,23,15,,,,,,,,,118.22969579999335,118.22969579999335,down,0,1.4599370999931125,,,,,,,,001,avni_1,2023-04-14_15h43.50.575,strooptest,2022.2.5,59.848487571741614,
YELLOW,green,0,down,1,8,24,9,,,,,,,,,120.21240189998935,120.21240189998935,down,1,1.0448170000017853,,,,,,,,001,avni_1,2023-04-14_15h43.50.575,strooptest,2022.2.5,59.848487571741614,
BLUE,green,0,down,1,9,25,4,,,,,,,,,121.76219059999858,121.76219059999858,left,0,1.4707408999965992,,,,,,,,001,avni_1,2023-04-14_15h43.50.575,strooptest,2022.2.5,59.848487571741614,
RED,yellow,0,up,1,10,26,2,,,,,,,,,123.76279649999924,123.76279649999924,right,0,0.9422880000056466,,,,,,,,001,avni_1,2023-04-14_15h43.50.575,strooptest,2022.2.5,59.848487571741614,
GREEN,green,1,down,1,11,27,14,,,,,,,,,125.21286509999481,125.21286509999481,down,1,1.3359169000032125,,,,,,,,001,avni_1,2023-04-14_15h43.50.575,strooptest,2022.2.5,59.848487571741614,
RED,green,0,down,1,12,28,1,,,,,,,,,127.0784333999909,127.0784333999909,right,0,0.8668590000015683,,,,,,,,001,avni_1,2023-04-14_15h43.50.575,strooptest,2022.2.5,59.848487571741614,
GREEN,yellow,0,up,1,13,29,12,,,,,,,,,128.47797490000085,128.47797490000085,right,0,1.0142846000089776,,,,,,,,001,avni_1,2023-04-14_15h43.50.575,strooptest,2022.2.5,59.848487571741614,
BLUE,blue,1,right,1,14,30,6,,,,,,,,,130.01215599999705,130.01215599999705,down,0,1.0067456000106176,,,,,,,,001,avni_1,2023-04-14_15h43.50.575,strooptest,2022.2.5,59.848487571741614,
BLUE,red,0,left,1,15,31,5,,,,,,,,,131.54443139999057,131.54443139999057,up,0,0.9279014000057941,,,,,,,,001,avni_1,2023-04-14_15h43.50.575,strooptest,2022.2.5,59.848487571741614,
GREEN,green,1,down,2,0,32,14,,,,,,,,,132.99508129998867,132.99508129998867,left,0,0.6768023000040557,,,,,,,,001,avni_1,2023-04-14_15h43.50.575,strooptest,2022.2.5,59.848487571741614,
YELLOW,yellow,1,up,2,1,33,8,,,,,,,,,134.19384379999246,134.19384379999246,down,0,0.8180535999999847,,,,,,,,001,avni_1,2023-04-14_15h43.50.575,strooptest,2022.2.5,59.848487571741614,
GREEN,yellow,0,up,2,2,34,12,,,,,,,,,135.5440082999994,135.5440082999994,up,1,1.4468327999929897,,,,,,,,001,avni_1,2023-04-14_15h43.50.575,strooptest,2022.2.5,59.848487571741614,
RED,red,1,left,2,3,35,0,,,,,,,,,137.50979399999778,137.50979399999778,right,0,0.6811568000121042,,,,,,,,001,avni_1,2023-04-14_15h43.50.575,strooptest,2022.2.5,59.848487571741614,
YELLOW,blue,0,right,2,4,36,11,,,,,,,,,138.70977649999259,138.70977649999259,right,1,0.9508739000011701,,,,,,,,001,avni_1,2023-04-14_15h43.50.575,strooptest,2022.2.5,59.848487571741614,
BLUE,yellow,0,up,2,5,37,7,,,,,,,,,140.19302599999355,140.19302599999355,down,0,0.8231360999925528,,,,,,,,001,avni_1,2023-04-14_15h43.50.575,strooptest,2022.2.5,59.848487571741614,
RED,green,0,down,2,6,38,1,,,,,,,,,141.54322169999068,141.54322169999068,down,1,0.7132740999950329,,,,,,,,001,avni_1,2023-04-14_15h43.50.575,strooptest,2022.2.5,59.848487571741614,
GREEN,red,0,left,2,7,39,15,,,,,,,,,142.7761582999956,142.7761582999956,left,1,1.8920242000021972,,,,,,,,001,avni_1,2023-04-14_15h43.50.575,strooptest,2022.2.5,59.848487571741614,
YELLOW,green,0,down,2,8,40,9,,,,,,,,,145.19220229999337,145.19220229999337,left,0,0.6955561999930069,,,,,,,,001,avni_1,2023-04-14_15h43.50.575,strooptest,2022.2.5,59.848487571741614,
GREEN,blue,0,right,2,9,41,13,,,,,,,,,146.408296900001,146.408296900001,right,1,1.0824132999987341,,,,,,,,001,avni_1,2023-04-14_15h43.50.575,strooptest,2022.2.5,59.848487571741614,
RED,blue,0,right,2,10,42,3,,,,,,,,,148.00830049999058,148.00830049999058,right,1,1.0035384999937378,,,,,,,,001,avni_1,2023-04-14_15h43.50.575,strooptest,2022.2.5,59.848487571741614,
RED,yellow,0,up,2,11,43,2,,,,,,,,,149.54134499999054,149.54134499999054,right,0,0.8572164000070188,,,,,,,,001,avni_1,2023-04-14_15h43.50.575,strooptest,2022.2.5,59.848487571741614,
BLUE,red,0,left,2,12,44,5,,,,,,,,,150.92471469999873,150.92471469999873,right,0,0.7958381000062218,,,,,,,,001,avni_1,2023-04-14_15h43.50.575,strooptest,2022.2.5,59.848487571741614,
BLUE,blue,1,right,2,13,45,6,,,,,,,,,152.24100019999605,152.24100019999605,left,0,1.2945143999968423,,,,,,,,001,avni_1,2023-04-14_15h43.50.575,strooptest,2022.2.5,59.848487571741614,
YELLOW,red,0,left,2,14,46,10,,,,,,,,,154.05732529998932,154.05732529998932,up,0,1.5033142999891425,,,,,,,,001,avni_1,2023-04-14_15h43.50.575,strooptest,2022.2.5,59.848487571741614,
BLUE,green,0,down,2,15,47,4,,,,,,,,,156.0905797999876,156.0905797999876,down,1,0.8671262999996543,,,,,,,,001,avni_1,2023-04-14_15h43.50.575,strooptest,2022.2.5,59.848487571741614,
,,,,,,,,,,,,,,,,,,,,,156.99141370000143,157.63638789999823,157.63638789999823,4.0,15.243502600002103,172.7547029999987,175.75389729999006,,,,,,,
