word,colour,congruent,corrAns,trials.thisRepN,trials.thisTrialN,trials.thisN,trials.thisIndex,text_2.started,text_3.started,text_2.stopped,text_3.stopped,instrText.started,key_resp.started,key_resp.keys,key_resp.rt,target.started,response.started,response.keys,response.corr,response.rt,text.started,text.stopped,endNotes.started,stressScore.started,stressScore.response,stressScore.rt,text_4.started,text_4.stopped,session,participant,date,expName,psychopyVersion,frameRate,
,,,,,,,,24.938519799965434,54.928753299987875,54.94453019998036,55.42830249998951,55.42830249998951,55.42830249998951,space,18.32478630001424,,,,,,,,,,,,,,001,nabeha04pt2,2023-04-18_19h36.58.428,strooptest,2022.2.5,60.06976503885641,
YELLOW,blue,0,right,0,0,0,11,,,,,,,,,74.27472549997037,74.27472549997037,right,1,0.5013402999611571,,,,,,,,,001,nabeha04pt2,2023-04-18_19h36.58.428,strooptest,2022.2.5,60.06976503885641,
YELLOW,yellow,1,up,0,1,1,8,,,,,,,,,75.30791370000225,75.30791370000225,up,1,0.6434876000275835,,,,,,,,,001,nabeha04pt2,2023-04-18_19h36.58.428,strooptest,2022.2.5,60.06976503885641,
YELLOW,green,0,down,0,2,2,9,,,,,,,,,76.47454709996236,76.47454709996236,down,1,0.5218423000187613,,,,,,,,,001,nabeha04pt2,2023-04-18_19h36.58.428,strooptest,2022.2.5,60.06976503885641,
RED,green,0,down,0,3,3,1,,,,,,,,,77.52412809996167,77.52412809996167,down,1,0.5592570999870077,,,,,,,,,001,nabeha04pt2,2023-04-18_19h36.58.428,strooptest,2022.2.5,60.06976503885641,
GREEN,blue,0,right,0,4,4,13,,,,,,,,,78.60769259999506,78.60769259999506,right,1,0.4307008000323549,,,,,,,,,001,nabeha04pt2,2023-04-18_19h36.58.428,strooptest,2022.2.5,60.06976503885641,
GREEN,red,0,left,0,5,5,15,,,,,,,,,79.54007839999394,79.54007839999394,left,1,0.45372620003763586,,,,,,,,,001,nabeha04pt2,2023-04-18_19h36.58.428,strooptest,2022.2.5,60.06976503885641,
BLUE,green,0,down,0,6,6,4,,,,,,,,,80.52351049997378,80.52351049997378,down,1,0.609499300015159,,,,,,,,,001,nabeha04pt2,2023-04-18_19h36.58.428,strooptest,2022.2.5,60.06976503885641,
BLUE,blue,1,right,0,7,7,6,,,,,,,,,81.65703239996219,81.65703239996219,right,1,0.5814617999712937,,,,,,,,,001,nabeha04pt2,2023-04-18_19h36.58.428,strooptest,2022.2.5,60.06976503885641,
RED,yellow,0,up,0,8,8,2,,,,,,,,,82.75715929997386,82.75715929997386,up,1,0.6884856999968179,,,,,,,,,001,nabeha04pt2,2023-04-18_19h36.58.428,strooptest,2022.2.5,60.06976503885641,
GREEN,green,1,down,0,9,9,14,,,,,,,,,83.97323989996221,83.97323989996221,down,1,0.7430858999723569,,,,,,,,,001,nabeha04pt2,2023-04-18_19h36.58.428,strooptest,2022.2.5,60.06976503885641,
YELLOW,red,0,left,0,10,10,10,,,,,,,,,85.23971100000199,85.23971100000199,left,1,0.5068829999654554,,,,,,,,,001,nabeha04pt2,2023-04-18_19h36.58.428,strooptest,2022.2.5,60.06976503885641,
BLUE,yellow,0,up,0,11,11,7,,,,,,,,,86.27287039998919,86.27287039998919,right,0,0.4062168000382371,,,,,,,,,001,nabeha04pt2,2023-04-18_19h36.58.428,strooptest,2022.2.5,60.06976503885641,
GREEN,yellow,0,up,0,12,12,12,,,,,,,,,87.20617749996018,87.20617749996018,up,1,0.7810020999750122,,,,,,,,,001,nabeha04pt2,2023-04-18_19h36.58.428,strooptest,2022.2.5,60.06976503885641,
BLUE,red,0,left,0,13,13,5,,,,,,,,,88.50580849999096,88.50580849999096,left,1,0.6513125000055879,,,,,,,,,001,nabeha04pt2,2023-04-18_19h36.58.428,strooptest,2022.2.5,60.06976503885641,
RED,blue,0,right,0,14,14,3,,,,,,,,,89.6890132999979,89.6890132999979,right,1,0.36978489998728037,,,,,,,,,001,nabeha04pt2,2023-04-18_19h36.58.428,strooptest,2022.2.5,60.06976503885641,
RED,red,1,left,0,15,15,0,,,,,,,,,90.588757599995,90.588757599995,left,1,0.4593786000041291,,,,,,,,,001,nabeha04pt2,2023-04-18_19h36.58.428,strooptest,2022.2.5,60.06976503885641,
RED,green,0,down,1,0,16,1,,,,,,,,,91.55556439998327,91.55556439998327,down,1,0.6899645000230521,,,,,,,,,001,nabeha04pt2,2023-04-18_19h36.58.428,strooptest,2022.2.5,60.06976503885641,
YELLOW,green,0,down,1,1,17,9,,,,,,,,,92.77229629998328,92.77229629998328,down,1,0.811071100004483,,,,,,,,,001,nabeha04pt2,2023-04-18_19h36.58.428,strooptest,2022.2.5,60.06976503885641,
RED,blue,0,right,1,2,18,3,,,,,,,,,94.10480470000766,94.10480470000766,right,1,0.7549800000269897,,,,,,,,,001,nabeha04pt2,2023-04-18_19h36.58.428,strooptest,2022.2.5,60.06976503885641,
YELLOW,red,0,left,1,3,19,10,,,,,,,,,95.37140999996336,95.37140999996336,left,1,0.4753045000252314,,,,,,,,,001,nabeha04pt2,2023-04-18_19h36.58.428,strooptest,2022.2.5,60.06976503885641,
YELLOW,blue,0,right,1,4,20,11,,,,,,,,,96.37205529998755,96.37205529998755,right,1,0.7610284999827854,,,,,,,,,001,nabeha04pt2,2023-04-18_19h36.58.428,strooptest,2022.2.5,60.06976503885641,
YELLOW,yellow,1,up,1,5,21,8,,,,,,,,,97.65438399999402,97.65438399999402,up,1,0.5844061999814585,,,,,,,,,001,nabeha04pt2,2023-04-18_19h36.58.428,strooptest,2022.2.5,60.06976503885641,
BLUE,yellow,0,up,1,6,22,7,,,,,,,,,98.77059689996531,98.77059689996531,up,1,0.46950980002293363,,,,,,,,,001,nabeha04pt2,2023-04-18_19h36.58.428,strooptest,2022.2.5,60.06976503885641,
RED,yellow,0,up,1,7,23,2,,,,,,,,,99.77070979995187,99.77070979995187,up,1,0.5411392999812961,,,,,,,,,001,nabeha04pt2,2023-04-18_19h36.58.428,strooptest,2022.2.5,60.06976503885641,
GREEN,green,1,down,1,8,24,14,,,,,,,,,100.83718269999372,100.83718269999372,down,1,0.6384963000309654,,,,,,,,,001,nabeha04pt2,2023-04-18_19h36.58.428,strooptest,2022.2.5,60.06976503885641,
GREEN,yellow,0,up,1,9,25,12,,,,,,,,,102.00409629999194,102.00409629999194,up,1,0.5888457999681123,,,,,,,,,001,nabeha04pt2,2023-04-18_19h36.58.428,strooptest,2022.2.5,60.06976503885641,
GREEN,red,0,left,1,10,26,15,,,,,,,,,103.12057689996436,103.12057689996436,left,1,0.5173219999996945,,,,,,,,,001,nabeha04pt2,2023-04-18_19h36.58.428,strooptest,2022.2.5,60.06976503885641,
BLUE,green,0,down,1,11,27,4,,,,,,,,,104.1700012999936,104.1700012999936,right,0,0.5657028999994509,,,,,,,,,001,nabeha04pt2,2023-04-18_19h36.58.428,strooptest,2022.2.5,60.06976503885641,
BLUE,blue,1,right,1,12,28,6,,,,,,,,,105.25367429998005,105.25367429998005,right,1,0.7693301999825053,,,,,,,,,001,nabeha04pt2,2023-04-18_19h36.58.428,strooptest,2022.2.5,60.06976503885641,
GREEN,blue,0,right,1,13,29,13,,,,,,,,,106.55291490000673,106.55291490000673,right,1,0.4011558999773115,,,,,,,,,001,nabeha04pt2,2023-04-18_19h36.58.428,strooptest,2022.2.5,60.06976503885641,
RED,red,1,left,1,14,30,0,,,,,,,,,107.46935909998138,107.46935909998138,left,1,0.45782409998355433,,,,,,,,,001,nabeha04pt2,2023-04-18_19h36.58.428,strooptest,2022.2.5,60.06976503885641,
BLUE,red,0,left,1,15,31,5,,,,,,,,,108.45258639997337,108.45258639997337,left,1,0.40922709996812046,,,,,,,,,001,nabeha04pt2,2023-04-18_19h36.58.428,strooptest,2022.2.5,60.06976503885641,
BLUE,red,0,left,2,0,32,5,,,,,,,,,109.38617009995505,109.38617009995505,left,1,0.3658242999808863,,,,,,,,,001,nabeha04pt2,2023-04-18_19h36.58.428,strooptest,2022.2.5,60.06976503885641,
GREEN,blue,0,right,2,1,33,13,,,,,,,,,110.26895749999676,110.26895749999676,right,1,0.5354344000224955,,,,,,,,,001,nabeha04pt2,2023-04-18_19h36.58.428,strooptest,2022.2.5,60.06976503885641,
BLUE,yellow,0,up,2,2,34,7,,,,,,,,,111.3355669999728,111.3355669999728,up,1,0.5392462000017986,,,,,,,,,001,nabeha04pt2,2023-04-18_19h36.58.428,strooptest,2022.2.5,60.06976503885641,
RED,green,0,down,2,3,35,1,,,,,,,,,112.40190789999906,112.40190789999906,down,1,0.49008620000677183,,,,,,,,,001,nabeha04pt2,2023-04-18_19h36.58.428,strooptest,2022.2.5,60.06976503885641,
BLUE,green,0,down,2,4,36,4,,,,,,,,,113.41911289998097,113.41911289998097,down,1,0.3640105999656953,,,,,,,,,001,nabeha04pt2,2023-04-18_19h36.58.428,strooptest,2022.2.5,60.06976503885641,
YELLOW,blue,0,right,2,5,37,11,,,,,,,,,114.30225459998474,114.30225459998474,left,0,0.6500040999962948,,,,,,,,,001,nabeha04pt2,2023-04-18_19h36.58.428,strooptest,2022.2.5,60.06976503885641,
YELLOW,green,0,down,2,6,38,9,,,,,,,,,115.46828400000231,115.46828400000231,down,1,0.9602362000150606,,,,,,,,,001,nabeha04pt2,2023-04-18_19h36.58.428,strooptest,2022.2.5,60.06976503885641,
RED,red,1,left,2,7,39,0,,,,,,,,,116.95132900000317,116.95132900000317,left,1,0.6357506000204012,,,,,,,,,001,nabeha04pt2,2023-04-18_19h36.58.428,strooptest,2022.2.5,60.06976503885641,
GREEN,green,1,down,2,8,40,14,,,,,,,,,118.11757909995504,118.11757909995504,down,1,0.7898545000352897,,,,,,,,,001,nabeha04pt2,2023-04-18_19h36.58.428,strooptest,2022.2.5,60.06976503885641,
GREEN,yellow,0,up,2,9,41,12,,,,,,,,,119.43431199999759,119.43431199999759,up,1,0.7163615000317805,,,,,,,,,001,nabeha04pt2,2023-04-18_19h36.58.428,strooptest,2022.2.5,60.06976503885641,
YELLOW,red,0,left,2,10,42,10,,,,,,,,,120.66777139995247,120.66777139995247,left,1,0.5789396000327542,,,,,,,,,001,nabeha04pt2,2023-04-18_19h36.58.428,strooptest,2022.2.5,60.06976503885641,
GREEN,red,0,left,2,11,43,15,,,,,,,,,121.76754349999828,121.76754349999828,up,0,0.5252120000077412,,,,,,,,,001,nabeha04pt2,2023-04-18_19h36.58.428,strooptest,2022.2.5,60.06976503885641,
BLUE,blue,1,right,2,12,44,6,,,,,,,,,122.81700469995849,122.81700469995849,right,1,1.0880862000049092,,,,,,,,,001,nabeha04pt2,2023-04-18_19h36.58.428,strooptest,2022.2.5,60.06976503885641,
RED,blue,0,right,2,13,45,3,,,,,,,,,124.43334230000619,124.43334230000619,left,0,0.7631240999908186,,,,,,,,,001,nabeha04pt2,2023-04-18_19h36.58.428,strooptest,2022.2.5,60.06976503885641,
RED,yellow,0,up,2,14,46,2,,,,,,,,,125.71669460000703,125.71669460000703,up,1,1.0068419000017457,,,,,,,,,001,nabeha04pt2,2023-04-18_19h36.58.428,strooptest,2022.2.5,60.06976503885641,
YELLOW,yellow,1,up,2,15,47,8,,,,,,,,,127.25013429997489,127.25013429997489,up,1,0.470519200025592,,,,,,,,,001,nabeha04pt2,2023-04-18_19h36.58.428,strooptest,2022.2.5,60.06976503885641,
,,,,,,,,,,,,,,,,,,,,,127.74987100000726,127.87710119999247,128.3995028999634,128.3995028999634,3.0,5.563574900035746,133.81553679995704,136.81455369998002,,,,,,,
